,accelx,accely,accelz,mag, steps, time
0.05,0.54,-0.13,0.86,1.023767552,75,60
0.1,0.47,-0.01,0.89,1.006528688,,
0.15,0.49,0.04,0.92,1.043120319,,
0.2,0.4,-0.17,0.88,0.981478477,,
0.25,0.24,-0.33,0.65,0.767463354,,
0.3,0.1,-0.36,0.37,0.525832673,,
0.35,0.06,-0.51,0.35,0.621449918,,
0.4,0.1,-0.82,0.05,0.827586853,,
0.45,0.47,-1.29,-0.21,1.388920444,,
0.5,0.99,-1.93,-0.19,2.177406714,,
0.55,1.59,-2,0.22,2.564468756,,
0.6,1.66,-1.46,0.54,2.275697695,,
0.65,0.79,-0.79,0.19,1.133269606,,
0.7,0.75,-0.94,0.12,1.208511481,,
0.75,1.3,-0.77,0.22,1.526859522,,
0.8,1.1,-0.86,0.35,1.439479072,,
0.85,0.9,-1,0.28,1.374190671,,
0.9,0.79,-1.44,0.17,1.651241957,,
0.95,0.44,-1.48,-0.04,1.544538766,,
1,0.37,-1.38,0.03,1.429055632,,
1.05,0.34,-0.93,0.04,0.991009586,,
1.1,0.44,-0.82,0.08,0.934023554,,
1.15,0.43,-0.73,0.11,0.854341852,,
1.2,0.36,-0.78,0.06,0.861162006,,
1.25,0.31,-1.06,0.04,1.105124427,,
1.3,0.47,-1.47,0.2,1.556213353,,
1.35,0.83,-1.15,0.84,1.648332491,,
1.4,0.51,-0.94,0.41,1.145338378,,
1.45,0.09,-1.11,-0.09,1.117273467,,
1.5,0.22,-1.01,-0.05,1.034891299,,
1.55,0.89,-0.81,0.04,1.20407641,,
1.6,1.29,-0.51,0.41,1.446478482,,
1.65,1.04,-0.37,0.48,1.203702621,,
1.7,0.9,-0.39,0.46,1.083374358,,
1.75,0.76,-0.9,0.31,1.218072247,,
1.8,0.68,-1.62,0.32,1.785833139,,
1.85,0.54,-1.61,0.39,1.742354729,,
1.9,0.66,-1.4,0.35,1.58685223,,
1.95,0.61,-1.25,0.19,1.403816227,,
2,0.49,-1.06,0.12,1.17392504,,
2.05,0.4,-0.91,0.01,0.994082492,,
2.1,0.38,-0.85,-0.07,0.933702308,,
2.15,0.31,-0.65,-0.06,0.722634071,,
2.2,0.38,-0.63,-0.01,0.735798886,,
2.25,0.36,-0.64,-0.06,0.736749618,,
2.3,0.45,-1.11,0.06,1.199249765,,
2.35,0.66,-1.59,0.26,1.741062894,,
2.4,0.84,-1.34,0.76,1.754650962,,
2.45,0.4,-0.91,0.58,1.150869237,,
2.5,0.14,-1.07,0.14,1.088163591,,
2.55,0.24,-0.96,0.12,0.996794864,,
2.6,0.9,-0.85,0.28,1.269212354,,
2.65,0.94,-0.6,0.42,1.191637529,,
2.7,0.91,-0.4,0.53,1.126499001,,
2.75,0.69,-0.59,0.34,0.969432824,,
2.8,0.59,-1.01,0.23,1.192098989,,
2.85,0.6,-1.39,0.37,1.558524944,,
2.9,0.85,-1.55,0.38,1.808148224,,
2.95,0.63,-1.31,0.21,1.468706914,,
3,0.5,-1.21,0.12,1.314724306,,
3.05,0.34,-1.04,0,1.094166349,,
3.1,0.63,-0.78,0.14,1.012373449,,
3.15,0.65,-0.72,0.08,0.973293378,,
3.2,0.38,-0.63,-0.04,0.736817481,,
3.25,0.28,-0.51,-0.03,0.582580467,,
3.3,0.31,-0.7,0.04,0.76661594,,
3.35,0.48,-1.23,0.17,1.331240023,,
3.4,0.49,-1.68,0.33,1.780842497,,
3.45,0.44,-1.08,0.82,1.425622671,,
3.5,0.4,-1.21,0.44,1.34822105,,
3.55,0.19,-1.03,0.27,1.081619157,,
3.6,0.55,-0.8,0.26,1.005037313,,
3.65,0.78,-0.56,0.22,0.985088828,,
3.7,0.86,-0.37,0.31,0.986204847,,
3.75,0.85,-0.37,0.39,1.005733563,,
3.8,0.71,-0.73,0.31,1.0644717,,
3.85,0.62,-0.99,0.27,1.198916177,,
3.9,0.91,-1.41,0.49,1.748227674,,
3.95,0.74,-1.57,0.39,1.778932264,,
4,0.77,-1.45,0.34,1.67660371,,
4.05,0.47,-1.52,0.15,1.598061325,,
4.1,0.47,-0.96,0.17,1.082312339,,
4.15,0.43,-0.89,0.16,1.001299156,,
4.2,0.33,-0.67,0.03,0.747462374,,
4.25,0.17,-0.54,-0.01,0.566215507,,
4.3,0.29,-0.65,0.05,0.713512439,,
4.35,0.32,-0.96,0.07,1.014347081,,
4.4,0.49,-1.48,0.19,1.570541308,,
4.45,0.77,-2,0.51,2.202952564,,
4.5,0.79,-1.36,0.75,1.742469512,,
4.55,0.41,-1.17,0.21,1.257417989,,
4.6,0.35,-1.01,0.02,1.069111781,,
4.65,0.55,-0.95,-0.07,1.099954545,,
4.7,0.92,-0.77,-0.09,1.203079382,,
4.75,0.97,-0.41,0.06,1.054798559,,
4.8,0.76,-0.34,0.18,0.851821578,,
4.85,0.76,-0.42,0.31,0.922008677,,
4.9,0.86,-0.66,0.36,1.142278425,,
4.95,1.13,-1.4,0.53,1.87557991,,
5,0.83,-1.6,0.36,1.83806964,,
5.05,0.61,-1.84,0.44,1.987787715,,
5.1,0.14,-1.79,0.33,1.825541016,,
5.15,0.53,-1.12,0.31,1.277262698,,
5.2,0.48,-0.95,0.23,1.088944443,,
5.25,0.29,-0.68,0.08,0.743572458,,
5.3,0.08,-0.46,-0.02,0.467332858,,
5.35,0.13,-0.37,0.04,0.394208067,,
5.4,0.3,-0.58,0.14,0.667832314,,
5.45,0.38,-1.33,0.23,1.402212537,,
5.5,0.79,-2,0.32,2.174051517,,
5.55,0.78,-1.58,0.89,1.974056737,,
5.6,0.48,-1.26,0.19,1.361653407,,
5.65,0.26,-1.08,-0.2,1.128716085,,
5.7,0.75,-0.89,-0.18,1.177709642,,
5.75,0.86,-0.68,-0.21,1.116288493,,
5.8,0.79,-0.36,-0.27,0.909175451,,
5.85,0.64,-0.25,-0.1,0.694334213,,
5.9,0.9,-0.39,0.26,1.014741346,,
5.95,1.25,-0.73,0.42,1.50724915,,
6,1.08,-1.12,0.24,1.574293492,,
6.05,1.05,-1.58,0.48,1.956859729,,
6.1,0.88,-1.32,0.56,1.682379268,,
6.15,0.72,-1.69,0.29,1.859731163,,
6.2,0.41,-1.54,0.09,1.596182947,,
6.25,0.19,-1.09,0.04,1.107158525,,
6.3,0.19,-0.79,0.06,0.814739222,,
6.35,0.26,-0.63,0.05,0.683373983,,
6.4,0.23,-0.51,-0.02,0.5598214,,
6.45,0.3,-0.59,-0.02,0.662193325,,
6.5,0.46,-0.89,0.11,1.007869039,,
6.55,0.56,-1.37,0.19,1.492179614,,
6.6,0.84,-2,0.45,2.21542321,,
6.65,0.93,-1.5,0.88,1.972130827,,
6.7,0.27,-1,0.28,1.072986486,,
6.75,0.13,-0.95,0,0.958853482,,
6.8,0.57,-0.89,0.04,1.05763888,,
6.85,0.97,-0.62,0.12,1.157454103,,
6.9,0.92,-0.32,0.34,1.03169763,,
6.95,0.66,-0.32,0.39,0.830722577,,
7,0.71,-0.36,0.42,0.900055554,,
7.05,0.59,-0.62,0.21,0.881249113,,
7.1,0.55,-1.13,0.14,1.264515718,,
7.15,0.96,-1.78,0.64,2.121226061,,
7.2,0.94,-1.44,0.63,1.831420214,,
7.25,0.54,-1.59,0.25,1.697704332,,
7.3,0.53,-1.56,0.3,1.674664145,,
7.35,0.29,-1.09,0.23,1.15112988,,
7.4,0.35,-0.71,0.19,0.81406388,,
7.45,0.25,-0.63,0.12,0.688331316,,
7.5,0.2,-0.51,0.09,0.555157635,,
7.55,0.23,-0.64,0.1,0.687386354,,
7.6,0.34,-1.01,0.15,1.076197008,,
7.65,0.43,-1.74,0.1,1.795132307,,
7.7,0.81,-2,0.02,2.15789249,,
7.75,0.95,-1.22,0.33,1.581075583,,
7.8,0.63,-1.11,0.01,1.276362018,,
7.85,0.54,-0.97,-0.14,1.118972743,,
7.9,0.67,-0.7,-0.24,0.998248466,,
7.95,0.78,-0.43,-0.13,0.900111104,,
8,0.77,-0.34,0.1,0.847643793,,
8.05,0.71,-0.35,0.25,0.830120473,,
8.1,0.9,-0.7,0.49,1.241007655,,
8.15,0.93,-0.82,0.49,1.333191659,,
8.2,1.24,-1.19,0.58,1.81386328,,
8.25,0.71,-1.19,0.6,1.510033112,,
8.3,0.83,-1.07,0.58,1.473159869,,
8.35,0.77,-1.29,0.41,1.557273258,,
8.4,0.5,-1.36,0.2,1.46273716,,
8.45,0.32,-1.12,0.17,1.177157594,,
8.5,0.26,-0.93,0.12,0.973087869,,
8.55,0.26,-0.77,0.14,0.824681757,,
8.6,0.3,-0.65,0.12,0.725878778,,
8.65,0.33,-0.82,0.16,0.898276127,,
8.7,0.4,-1.23,0.14,1.300961183,,
8.75,0.75,-1.63,0.51,1.865341792,,
8.8,0.63,-1.34,0.35,1.521512405,,
8.85,0.33,-1.15,0,1.196411301,,
8.9,0.49,-0.91,-0.04,1.034311365,,
8.95,0.96,-0.77,0.03,1.231015841,,
9,0.87,-0.5,0.05,1.004689007,,
9.05,0.68,-0.43,0.12,0.813449445,,
9.1,0.79,-0.5,0.17,0.950263121,,
9.15,0.99,-0.83,0.27,1.319810592,,
9.2,1.16,-1.09,0.37,1.634197051,,
9.25,1.02,-1.14,0.28,1.555120574,,
9.3,0.96,-1.47,0.27,1.776344561,,
9.35,0.59,-1.55,0.08,1.660421633,,
9.4,0.26,-1.24,0.08,1.269488086,,
9.45,0.28,-0.99,0.1,1.033682737,,
9.5,0.35,-0.8,0.1,0.878919792,,
9.55,0.33,-0.63,0.06,0.713722635,,
9.6,0.29,-0.6,-0.06,0.669103878,,
9.65,0.47,-0.89,0.13,1.014839889,,
9.7,0.71,-1.41,0.29,1.605085667,,
9.75,1,-1.31,0.81,1.836355085,,
9.8,0.51,-0.95,0.44,1.164560003,,
9.85,0.11,-1.09,0.09,1.099227001,,
9.9,0.03,-0.93,0.03,0.930967239,,
9.95,0.55,-1.02,0.12,1.165032188,,
10,1.03,-0.74,0.26,1.294642808,,
10.05,0.95,-0.51,0.38,1.143241007,,
10.1,0.94,-0.51,0.44,1.15641688,,
10.15,1.06,-0.93,0.41,1.468536687,,
10.2,0.84,-1.11,0.35,1.435339681,,
10.25,0.84,-1.38,0.41,1.666763331,,
10.3,0.7,-1.44,0.35,1.638932579,,
10.35,0.58,-1.41,0.25,1.544991909,,
10.4,0.42,-1.11,0.11,1.191889257,,
10.45,0.41,-0.98,0.07,1.064612606,,
10.5,0.37,-0.86,-0.01,0.936269192,,
10.55,0.33,-0.67,-0.06,0.749266308,,
10.6,0.45,-0.56,0.11,0.726773692,,
10.65,0.38,-0.71,0.04,0.80628779,,
10.7,0.44,-1.04,0.16,1.140526194,,
10.75,0.44,-1.21,0.22,1.30617763,,
10.8,0.54,-1.14,0.55,1.376117728,,
10.85,0.57,-1.29,0.65,1.552900512,,
10.9,0.41,-1.11,0.31,1.22323342,,
10.95,0.32,-1,0.27,1.08411254,,
11,0.61,-0.99,0.38,1.22335604,,
11.05,0.89,-0.77,0.42,1.249559923,,
11.1,0.96,-0.53,0.43,1.177879451,,
11.15,1.07,-0.54,0.53,1.310496089,,
11.2,0.89,-0.87,0.35,1.292865035,,
11.25,0.71,-1.31,0.38,1.537725593,,
11.3,0.73,-1.69,0.41,1.886027571,,
11.35,0.69,-1.46,0.32,1.646238136,,
11.4,0.65,-1.58,0.24,1.725253605,,
11.45,0.49,-1.4,0.14,1.489865766,,
11.5,0.37,-0.96,0.04,1.029611577,,
11.55,0.41,-0.74,0.02,0.84622692,,
11.6,0.39,-0.66,0,0.76661594,,
11.65,0.33,-0.54,-0.04,0.634113554,,
11.7,0.35,-0.57,0.1,0.676313537,,
11.75,0.31,-0.64,0.05,0.712881477,,
11.8,0.41,-1.16,0.24,1.253515058,,
11.85,0.79,-1.68,0.59,1.947973306,,
11.9,1.04,-1.23,1.12,1.961861361,,
11.95,0.07,-1.34,0.19,1.355212161,,
12,0.02,-1.01,0.1,1.015135459,,
12.05,0.69,-0.96,0.14,1.190504095,,
12.1,1.1,-0.68,0.24,1.315294644,,
12.15,0.83,-0.51,0.28,1.013607419,,
12.2,0.84,-0.27,0.43,0.981529419,,
12.25,0.93,-0.75,0.45,1.27667537,,
12.3,0.71,-0.9,0.2,1.163658025,,
12.35,0.9,-1.67,0.45,1.949717928,,
12.4,0.58,-1.64,0.31,1.766946519,,
12.45,0.5,-1.51,0.21,1.604431363,,
12.5,0.67,-1.22,0.3,1.423832855,,
12.55,0.6,-1.09,0.2,1.260198397,,
12.6,0.42,-0.94,0.07,1.031939921,,
12.65,0.24,-0.72,0.02,0.759210116,,
12.7,0.14,-0.52,0.01,0.53860932,,
12.75,0.18,-0.53,0.06,0.562938718,,
12.8,0.21,-0.79,0.06,0.819634065,,
12.85,0.3,-1.63,-0.08,1.659307084,,
12.9,0.84,-2,-0.35,2.19729379,,
12.95,1.2,-1.59,0.47,2.046704668,,
13,0.42,-1.43,-0.32,1.524368722,,
13.05,0.62,-1.37,-0.36,1.546253537,,
13.1,0.61,-1.12,-0.5,1.369854007,,
13.15,1.25,-0.7,-0.59,1.549386976,,
13.2,1.2,-0.36,-0.31,1.290620006,,
13.25,1.05,-0.29,-0.01,1.089357609,,
13.3,1.12,-0.5,0.21,1.244387399,,
13.35,1.16,-0.81,0.28,1.442255179,,
13.4,1.58,-1.62,0.47,2.311211803,,
13.45,0.8,-1.88,0.3,2.065042372,,
13.5,0.51,-2,0.11,2.066930091,,
13.55,0.11,-1.65,0.31,1.682468425,,
13.6,0.36,-0.99,0.24,1.080416586,,
13.65,0.32,-0.77,0.11,0.841070746,,
13.7,0.21,-0.63,0.06,0.666783323,,
13.75,0.15,-0.52,0.03,0.542033209,,
13.8,0.26,-0.57,0.11,0.636081756,,
13.85,0.27,-0.92,0.05,0.960104161,,
13.9,0.32,-1.91,-0.26,1.953995906,,
13.95,1.58,-2,-0.24,2.560078124,,
14,1.54,-0.98,0.61,1.924603855,,
14.05,0.34,-1.14,-0.14,1.197831374,,
14.1,0.47,-1.02,-0.23,1.146385624,,
14.15,0.75,-0.64,-0.23,1.012422837,,
14.2,0.89,-0.32,-0.11,0.952155449,,
14.25,0.89,-0.41,0.21,1.002147694,,
14.3,0.93,-0.45,0.3,1.075825265,,
14.35,1.15,-0.7,0.57,1.461984952,,
14.4,1.43,-1.25,0.58,1.9859003,,
14.45,0.93,-1.71,0.43,1.993464321,,
14.5,0.5,-1.8,0.3,1.892088793,,
14.55,0.32,-1.95,0.24,1.990602924,,
14.6,0.34,-1.14,0.15,1.199041284,,
14.65,0.35,-0.79,0.18,0.882609767,,
14.7,0.31,-0.67,0.11,0.746391318,,
14.75,0.18,-0.56,0.03,0.588982173,,
14.8,0.16,-0.49,0.03,0.516333226,,
14.85,0.37,-0.55,0.14,0.677495387,,
14.9,0.37,-0.96,0.23,1.054229577,,
14.95,0.42,-1.91,0.12,1.959311103,,
15,1.05,-2,0.22,2.269559429,,
15.05,0.93,-0.97,0.62,1.479932431,,
15.1,0.34,-0.94,0.11,1.005634128,,
15.15,0.46,-0.99,-0.16,1.103313192,,
15.2,0.68,-0.71,-0.13,0.991665266,,
15.25,0.68,-0.43,-0.17,0.822313809,,
15.3,0.73,-0.25,0,0.771621669,,
15.35,0.78,-0.29,0.28,0.878009112,,
15.4,1.16,-0.62,0.59,1.441561653,,
15.45,0.9,-0.87,0.16,1.261942946,,
15.5,0.89,-1.39,0.38,1.693694187,,
15.55,1.14,-1.4,0.59,1.89939464,,
15.6,0.94,-1.35,0.36,1.683953681,,
15.65,0.83,-1.62,0.15,1.826417258,,
15.7,0.33,-1.37,0,1.409184161,,
15.75,0.28,-1.07,0.02,1.106209745,,
15.8,0.32,-0.88,-0.01,0.936429389,,
15.85,0.27,-0.66,-0.06,0.715611627,,
15.9,0.29,-0.56,-0.04,0.631901891,,
15.95,0.42,-0.71,0.05,0.82643814,,
16,0.46,-0.95,0.12,1.062308806,,
16.05,0.55,-1.34,0.23,1.466628787,,
16.1,0.82,-1.79,0.52,2.036393872,,
16.15,0.7,-1.1,0.74,1.499199787,,
16.2,0.4,-1.08,0.26,1.180677771,,
16.25,0.26,-0.97,0.09,1.008265838,,
16.3,0.57,-0.89,0.14,1.06611444,,
16.35,0.91,-0.62,0.2,1.119151464,,
16.4,0.94,-0.42,0.33,1.081156788,,
16.45,0.78,-0.43,0.42,0.984733466,,
16.5,0.8,-0.73,0.4,1.154512884,,
16.55,0.75,-1,0.3,1.285496013,,
16.6,0.81,-1.33,0.52,1.64176734,,
16.65,0.89,-1.57,0.44,1.85757907,,
16.7,0.54,-1.37,0.17,1.482362978,,
16.75,0.35,-1.31,0.08,1.358307771,,
16.8,0.4,-1.1,0.06,1.172006826,,
16.85,0.42,-0.86,0.02,0.957287836,,
16.9,0.4,-0.8,-0.02,0.89465077,,
16.95,0.37,-0.65,-0.04,0.748999332,,
17,0.4,-0.62,0.02,0.738105683,,
17.05,0.41,-0.72,0.05,0.830060239,,
17.1,0.42,-0.95,0.15,1.04947606,,
17.15,0.4,-1.36,0.27,1.443086969,,
17.2,0.62,-1.42,0.62,1.668891848,,
17.25,0.47,-1.12,0.76,1.432794472,,
17.3,0.4,-1.22,0.46,1.36381817,,
17.35,0.13,-1.08,0.26,1.118436409,,
17.4,0.76,-0.81,0.23,1.134283915,,
17.45,1.01,-0.54,0.34,1.194696614,,
17.5,0.87,-0.43,0.29,1.012867217,,
17.55,0.7,-0.54,0.29,0.930430008,,
17.6,0.69,-1.01,0.35,1.272281415,,
17.65,0.61,-1.18,0.22,1.34643975,,
17.7,0.92,-1.61,0.48,1.915437287,,
17.75,0.75,-1.21,0.25,1.445371924,,
17.8,0.45,-1.18,0.14,1.270629765,,
17.85,0.49,-1.1,0.16,1.214783931,,
17.9,0.42,-0.94,0.13,1.037737925,,
17.95,0.26,-0.84,0.04,0.880227243,,
18,0.19,-0.75,-0.03,0.774273853,,
18.05,0.32,-0.58,-0.05,0.664304147,,
18.1,0.54,-0.73,0.08,0.911537163,,
18.15,0.53,-0.98,0.15,1.124188596,,
18.2,0.64,-1.22,0.24,1.398427689,,
18.25,0.68,-1.43,0.45,1.646147017,,
18.3,0.19,-0.88,0.51,1.034698024,,
18.35,0.35,-1.02,0.45,1.168503316,,
18.4,0.49,-0.91,0.37,1.097770468,,
18.45,0.63,-0.85,0.33,1.108286966,,
18.5,0.81,-0.68,0.37,1.12044634,,
18.55,0.67,-0.58,0.38,0.964209521,,
18.6,0.61,-0.59,0.4,0.938189746,,
18.65,0.58,-0.84,0.4,1.096357606,,
18.7,0.51,-0.95,0.33,1.127608088,,
18.75,0.74,-1.3,0.51,1.580411339,,
18.8,0.81,-1.4,0.53,1.702057578,,
18.85,0.42,-1.18,0.23,1.273459854,,
18.9,0.59,-1.13,0.25,1.299038106,,
18.95,0.42,-1.04,0.12,1.128007092,,
19,0.46,-0.82,0.04,0.941063228,,
19.05,0.41,-0.81,0.04,0.908735385,,
19.1,0.33,-0.65,0.01,0.729040465,,
19.15,0.35,-0.67,0.08,0.760131568,,
19.2,0.42,-0.9,0.14,1.002995513,,
19.25,0.41,-1.2,0.22,1.287050893,,
19.3,0.53,-1.63,0.41,1.762356377,,
19.35,0.56,-1.22,0.83,1.578258534,,
19.4,0.29,-1.09,0.4,1.196745587,,
19.45,0.2,-1.02,-0.03,1.039855759,,
19.5,0.37,-0.91,-0.12,0.989646401,,
19.55,0.88,-0.79,-0.07,1.184651848,,
19.6,1.01,-0.44,0.07,1.10390217,,
19.65,0.68,-0.4,0.12,0.797997494,,
19.7,0.73,-0.49,0.24,0.911372591,,
19.75,0.83,-0.9,0.33,1.267990536,,
19.8,0.65,-1.05,0.38,1.292052631,,
19.85,0.96,-1.34,0.71,1.794798039,,
19.9,0.67,-0.89,0.58,1.255945859,,
19.95,0.75,-1.12,0.58,1.467412689,,
20,0.69,-1.34,0.37,1.551966494,,
20.05,0.43,-1.09,0.15,1.181312829,,
20.1,0.36,-0.93,0.12,1.004440143,,
20.15,0.29,-0.84,0.06,0.890673902,,
20.2,0.17,-0.71,-0.02,0.730342385,,
20.25,0.38,-0.7,0.09,0.801560977,,
20.3,0.31,-0.91,0.04,0.962185013,,
20.35,0.53,-1.1,0.2,1.237295438,,
20.4,0.53,-1.43,0.21,1.539447953,,
20.45,0.69,-1.33,0.61,1.617745345,,
20.5,0.37,-0.89,0.47,1.072333903,,
20.55,0.13,-1.06,0.02,1.068129206,,
20.6,0.27,-0.94,-0.09,0.982140519,,
20.65,0.8,-0.86,-0.05,1.175627492,,
20.7,0.96,-0.64,0.07,1.155897919,,
20.75,0.89,-0.48,0.23,1.037014947,,
20.8,0.86,-0.44,0.36,1.030921918,,
20.85,0.75,-0.72,0.35,1.096995898,,
20.9,0.54,-0.89,0.26,1.072986486,,
20.95,0.87,-1.21,0.63,1.617992583,,
21,1.01,-1.22,0.7,1.731617741,,
21.05,0.59,-1.2,0.5,1.427620398,,
21.1,0.49,-1.59,0.36,1.702292572,,
21.15,0.38,-1.18,0.22,1.259047259,,
21.2,0.53,-0.93,0.19,1.087152243,,
21.25,0.62,-0.92,0.13,1.117004924,,
21.3,0.43,-0.79,0.04,0.900333272,,
21.35,0.38,-0.55,0.07,0.672160695,,
21.4,0.33,-0.39,0.13,0.527162214,,
21.45,0.31,-0.4,0.2,0.544150714,,
21.5,0.23,-0.53,0.19,0.608194048,,
21.55,0.41,-1.76,0.35,1.840706386,,
21.6,0.92,-2,0.75,2.325704194,,
21.65,0.65,-1.13,0.47,1.385748895,,
21.7,0.41,-0.86,0.17,0.967780967,,
21.75,0.72,-0.82,0.1,1.095810203,,
21.8,0.59,-0.65,0.04,0.878749111,,
21.85,0.57,-0.61,0.1,0.84083292,,
21.9,0.57,-0.5,0.16,0.774919351,,
21.95,0.74,-0.56,0.35,0.991816515,,
22,0.81,-0.72,0.55,1.215318888,,
22.05,0.66,-0.73,0.45,1.082127534,,
22.1,0.48,-0.85,0.32,1.027277957,,
22.15,0.47,-1.17,0.4,1.32280006,,
22.2,0.39,-1,0.37,1.135341358,,
22.25,0.23,-0.88,0.27,0.948788701,,
22.3,0.29,-0.94,0.25,1.014987685,,
22.35,0.44,-0.86,0.21,0.988584847,,
22.4,0.63,-0.87,0.3,1.115257818,,
22.45,0.75,-0.96,0.37,1.273184983,,
22.5,0.52,-0.82,0.25,1.002646498,,
22.55,0.43,-0.79,0.21,0.923634127,,
22.6,0.4,-0.84,0.22,0.956033472,,
22.65,0.42,-0.87,0.24,0.995439601,,
22.7,0.52,-0.86,0.37,1.070934172,,
22.75,0.43,-0.85,0.39,1.029320164,,
22.8,0.55,-0.79,0.41,1.046279121,,
22.85,0.56,-0.82,0.4,1.070513895,,
22.9,0.59,-0.87,0.37,1.114405671,,
22.95,0.58,-0.83,0.35,1.071354283,,
23,0.53,-0.8,0.27,0.99689518,,
23.05,0.53,-0.84,0.25,1.02420701,,
23.1,0.55,-0.82,0.27,1.023621024,,
23.15,0.54,-0.81,0.28,1.012965942,,
23.2,0.5,-0.82,0.32,1.012324059,,
23.25,0.48,-0.83,0.35,1.020686044,,
23.3,0.5,-0.84,0.42,1.063954886,,
23.35,0.47,-0.83,0.4,1.034311365,,
23.4,0.51,-0.83,0.41,1.056929515,,
23.45,0.52,-0.84,0.37,1.054940757,,
23.5,0.53,-0.83,0.35,1.045131571,,
23.55,0.53,-0.83,0.33,1.038604833,,
23.6,0.54,-0.81,0.3,1.018675611,,
23.65,0.54,-0.81,0.31,1.021665307,,
23.7,0.52,-0.82,0.3,1.016267681,,
23.75,0.53,-0.82,0.32,1.027472627,,
23.8,0.52,-0.83,0.33,1.033537614,,
23.85,0.52,-0.83,0.35,1.040096149,,
23.9,0.5,-0.84,0.36,1.041729331,,
23.95,0.5,-0.83,0.36,1.033682737,,
24,0.54,-0.83,0.36,1.053612832,,
24.05,0.43,-0.85,0.34,1.011434625,,
24.1,0.52,-0.84,0.35,1.048093507,,
24.15,0.56,-0.84,0.35,1.068503627,,
24.2,0.44,-0.84,0.32,1.00079968,,
24.25,0.52,-0.83,0.35,1.040096149,,
24.3,0.51,-0.83,0.34,1.031794553,,
24.35,0.54,-0.83,0.33,1.043743263,,
24.4,0.51,-0.84,0.31,1.030436801,,
24.45,0.5,-0.83,0.33,1.023621024,,
24.5,0.5,-0.83,0.34,1.026888504,,
24.55,0.51,-0.84,0.34,1.039855759,,
24.6,0.51,-0.85,0.34,1.047950381,,
24.65,0.46,-0.84,0.34,1.016267681,,
24.7,0.52,-0.84,0.34,1.044796631,,
24.75,0.49,-0.83,0.32,1.015578653,,
24.8,0.51,-0.83,0.32,1.025377979,,
24.85,0.51,-0.83,0.32,1.025377979,,
24.9,0.51,-0.83,0.32,1.025377979,,
24.95,0.5,-0.84,0.33,1.031746093,,
25,0.5,-0.83,0.33,1.023621024,,
25.05,0.5,-0.84,0.34,1.034987923,,
25.1,0.5,-0.84,0.34,1.034987923,,
25.15,0.5,-0.84,0.33,1.031746093,,
25.2,0.51,-0.85,0.33,1.044748774,,
25.25,0.51,-0.84,0.31,1.030436801,,
25.3,0.51,-0.84,0.33,1.036629153,,
25.35,0.5,-0.85,0.32,1.036773842,,
25.4,0.5,-0.83,0.32,1.020441081,,
25.45,0.49,-0.84,0.34,1.030194156,,
25.5,0.5,-0.84,0.33,1.031746093,,
25.55,0.49,-0.84,0.32,1.023767552,,
25.6,0.49,-0.83,0.33,1.018773773,,
25.65,0.5,-0.84,0.32,1.02859127,,
25.7,0.49,-0.85,0.32,1.031988372,,
25.75,0.5,-0.84,0.32,1.02859127,,
25.8,0.49,-0.85,0.32,1.031988372,,
25.85,0.5,-0.84,0.32,1.02859127,,
25.9,0.49,-0.85,0.32,1.031988372,,
25.95,0.49,-0.85,0.32,1.031988372,,
26,0.49,-0.85,0.32,1.031988372,,
26.05,0.49,-0.84,0.32,1.023767552,,
26.1,0.49,-0.85,0.32,1.031988372,,
26.15,0.5,-0.85,0.32,1.036773842,,
26.2,0.49,-0.84,0.33,1.026937194,,
26.25,0.49,-0.84,0.31,1.020686044,,
26.3,0.5,-0.84,0.31,1.025524256,,
26.35,0.5,-0.85,0.31,1.033731106,,
26.4,0.49,-0.84,0.31,1.020686044,,
26.45,0.5,-0.86,0.31,1.041969289,,
26.5,0.49,-0.85,0.32,1.031988372,,
26.55,0.51,-0.85,0.33,1.044748774,,
26.6,0.48,-0.85,0.29,1.018331969,,
26.65,0.48,-0.84,0.33,1.022203502,,
26.7,0.47,-0.85,0.34,1.029077257,,
26.75,0.47,-0.82,0.35,1.007869039,,
26.8,0.46,-0.84,0.3,1.003593543,,
26.85,0.52,-0.85,0.33,1.049666614,,
26.9,0.56,-0.83,0.34,1.057402478,,
26.95,0.5,-0.83,0.32,1.020441081,,
27,0.48,-0.87,0.35,1.053470455,,
27.05,0.38,-0.87,0.33,1.005087061,,
27.1,0.53,-0.88,0.34,1.082081328,,
27.15,0.56,-0.83,0.34,1.057402478,,
27.2,0.51,-0.83,0.28,1.013607419,,
27.25,0.53,-0.84,0.32,1.043503713,,
27.3,0.46,-0.84,0.29,1.000649789,,
27.35,0.49,-0.85,0.33,1.035132842,,
27.4,0.48,-0.86,0.34,1.041921302,,
27.45,0.5,-0.85,0.33,1.039903842,,
27.5,0.49,-0.85,0.31,1.028931485,,
27.55,0.52,-0.84,0.32,1.038460399,,
27.6,0.48,-0.84,0.3,1.012916581,,
27.65,0.47,-0.84,0.31,1.011236866,,
27.7,0.5,-0.85,0.31,1.033731106,,
27.75,0.5,-0.86,0.32,1.044988038,,
27.8,0.49,-0.85,0.32,1.031988372,,
27.85,0.51,-0.84,0.31,1.030436801,,
27.9,0.52,-0.84,0.32,1.038460399,,
27.95,0.49,-0.85,0.31,1.028931485,,
28,0.47,-0.86,0.32,1.030970417,,
28.05,0.49,-0.86,0.32,1.040240357,,
28.1,0.5,-0.84,0.32,1.02859127,,
28.15,0.48,-0.85,0.3,1.021224755,,
28.2,0.49,-0.84,0.32,1.023767552,,
28.25,0.5,-0.84,0.31,1.025524256,,
28.3,0.5,-0.85,0.33,1.039903842,,
28.35,0.51,-0.84,0.33,1.036629153,,
28.4,0.5,-0.85,0.32,1.036773842,,
28.45,0.49,-0.84,0.32,1.023767552,,
28.5,0.51,-0.85,0.33,1.044748774,,
28.55,0.51,-0.86,0.34,1.056077649,,
28.6,0.48,-0.87,0.35,1.053470455,,
28.65,0.47,-0.86,0.32,1.030970417,,
28.7,0.43,-0.86,0.29,1.004290795,,
28.75,0.46,-0.84,0.28,0.997797575,,
28.8,0.47,-0.84,0.28,1.002447006,,
28.85,0.46,-0.83,0.3,0.995238665,,
28.9,0.48,-0.83,0.32,1.010791769,,
28.95,0.48,-0.84,0.35,1.028834292,,
29,0.62,-0.84,0.42,1.125344392,,
29.05,0.68,-0.82,0.48,1.168417734,,
29.1,0.48,-0.88,0.33,1.055319857,,
29.15,0.42,-0.97,0.31,1.10154437,,
29.2,0.39,-0.96,0.31,1.081572929,,
29.25,0.46,-0.88,0.28,1.03169763,,
29.3,0.25,-0.85,0.2,0.908295106,,
29.35,0.41,-0.85,0.23,0.971339282,,
29.4,0.41,-0.91,0.27,1.03397292,,
29.45,0.51,-0.87,0.32,1.058017013,,
29.5,0.45,-0.9,0.3,1.05,,
29.55,0.46,-0.86,0.3,1.020392082,,
29.6,0.51,-0.81,0.33,1.012472222,,
29.65,0.54,-0.76,0.37,1.003045363,,
29.7,0.56,-0.67,0.38,0.952312974,,
29.75,0.58,-0.69,0.43,0.998699154,,
29.8,0.56,-0.73,0.47,1.033150521,,
29.85,0.62,-1.06,0.55,1.345548215,,
29.9,0.75,-1.37,0.53,1.649333199,,
29.95,0.66,-1.38,0.42,1.586316488,,
30,0.7,-1.26,0.39,1.493218001,,
30.05,0.54,-1.24,0.22,1.370255451,,
30.1,0.35,-1.07,0.1,1.130221217,,
30.15,0.26,-0.84,0.03,0.879829529,,
30.2,0.31,-0.7,0.03,0.766159252,,
30.25,0.35,-0.61,0.04,0.704414651,,
30.3,0.4,-0.57,0.13,0.70837843,,
30.35,0.42,-0.67,0.23,0.823528992,,
30.4,0.4,-1.25,0.23,1.332441368,,
30.45,0.56,-1.98,0.3,2.079422997,,
30.5,0.87,-1.81,0.87,2.188584017,,
30.55,0.49,-0.95,0.49,1.175882647,,
30.6,0.11,-1.15,0.01,1.155292171,,
30.65,0.48,-0.75,-0.1,0.896046874,,
30.7,0.89,-0.48,0.06,1.012965942,,
30.75,0.84,-0.33,0.17,0.918368118,,
30.8,0.59,-0.21,0.22,0.663777071,,
30.85,0.64,-0.37,0.25,0.780384521,,
30.9,0.95,-0.88,0.53,1.399214065,,
30.95,0.85,-0.91,0.43,1.317383771,,
31,0.99,-1.45,0.5,1.825541016,,
31.05,0.92,-1.51,0.4,1.812870652,,
31.1,0.46,-1.28,0.14,1.367333171,,
31.15,0.23,-1.29,0.19,1.324046827,,
31.2,0.3,-1.18,0.28,1.249319815,,
31.25,0.54,-0.77,0.05,0.941806774,,
31.3,0.56,-0.69,0.09,0.893196507,,
31.35,0.4,-0.66,0.04,0.772787163,,
31.4,0.37,-0.68,0.07,0.77730303,,
31.45,0.42,-0.86,0.12,0.964572444,,
31.5,0.44,-1.3,0.11,1.376844218,,
31.55,0.6,-1.47,0.39,1.634931191,,
31.6,0.65,-1.04,0.77,1.448102206,,
31.65,0.42,-1.04,0.37,1.181058847,,
31.7,0.1,-1.01,0.1,1.019852931,,
31.75,0.35,-0.9,0.17,0.980510071,,
31.8,0.79,-0.77,0.27,1.135737646,,
31.85,0.87,-0.55,0.38,1.097178199,,
31.9,0.78,-0.45,0.42,0.99362971,,
31.95,0.71,-0.72,0.37,1.076754382,,
32,0.73,-0.95,0.33,1.242698676,,
32.05,1.02,-1.36,0.58,1.79621825,,
32.1,0.78,-1.39,0.33,1.627697761,,
32.15,0.72,-1.42,0.27,1.614837453,,
32.2,0.49,-1.36,0.14,1.452342935,,
32.25,0.39,-1.15,0.11,1.21930308,,
32.3,0.41,-1.03,0.09,1.112249972,,
32.35,0.38,-0.87,0.05,0.950683964,,
32.4,0.3,-0.66,0.01,0.725051722,,
32.45,0.32,-0.59,0.01,0.671267458,,
32.5,0.31,-0.6,0.03,0.676017751,,
32.55,0.44,-1.12,0.18,1.216716894,,
32.6,0.76,-1.46,0.52,1.726151789,,
32.65,0.71,-1.15,0.92,1.634931191,,
32.7,0.22,-1.2,0.15,1.229186723,,
32.75,-0.11,-1.04,0.01,1.045848937,,
32.8,0.62,-1.07,0,1.236648697,,
32.85,1.14,-0.8,0.16,1.401855913,,
32.9,0.95,-0.44,0.35,1.10390217,,
32.95,0.87,-0.45,0.43,1.069719589,,
33,0.77,-0.9,0.28,1.217086685,,
33.05,0.83,-1.02,0.35,1.360808583,,
33.1,1.08,-1.33,0.51,1.787568181,,
33.15,0.78,-1.47,0.26,1.684309948,,
33.2,0.64,-1.6,0.24,1.739885054,,
33.25,0.31,-1.4,0.1,1.437393474,,
33.3,0.4,-1.07,0.11,1.147606204,,
33.35,0.48,-0.94,0.11,1.06117859,,
33.4,0.26,-0.78,-0.02,0.822435408,,
33.45,0.26,-0.63,0.04,0.682715168,,
33.5,0.19,-0.61,0.03,0.639609256,,
33.55,0.28,-0.71,-0.01,0.763282385,,
33.6,0.43,-1.19,0.05,1.266293805,,
33.65,0.89,-1.68,0.38,1.938788281,,
33.7,1.53,-1.27,1.45,2.460955099,,
33.75,0.16,-1.09,0.04,1.102406459,,
33.8,-0.33,-1.16,0.06,1.207518116,,
33.85,0.16,-1.07,-0.04,1.082635673,,
33.9,1.12,-0.91,0.15,1.450861813,,
33.95,1.05,-0.52,0.24,1.196035117,,
34,0.81,-0.35,0.31,0.935253976,,
34.05,1.01,-0.57,0.49,1.259007546,,
34.1,0.86,-0.91,0.29,1.285223716,,
34.15,0.91,-1.48,0.48,1.802470527,,
34.2,0.69,-1.44,0.35,1.634686514,,
34.25,0.6,-1.56,0.28,1.694697613,,
34.3,0.45,-1.39,0.17,1.470884088,,
34.35,0.52,-1.08,0.19,1.213630916,,
34.4,0.52,-0.95,0.14,1.092016483,,
34.45,0.41,-0.83,0.03,0.926228913,,
34.5,0.22,-0.68,-0.05,0.71644958,,
34.55,0.25,-0.54,-0.03,0.595818764,,
34.6,0.26,-0.57,0,0.626498204,,
34.65,0.44,-0.92,0.14,1.029368739,,
34.7,0.51,-1.56,0.22,1.655928742,,
34.75,0.87,-2,0.88,2.351871595,,
34.8,0.86,-0.72,0.95,1.469863939,,
34.85,-0.05,-1.23,0.24,1.254192968,,
34.9,0.05,-1.05,0,1.051189802,,
34.95,0.49,-0.85,-0.19,0.999349789,,
35,1.04,-0.48,-0.07,1.147562634,,
35.05,0.99,-0.25,0.16,1.033537614,,
35.1,0.73,-0.23,0.22,0.79636675,,
35.15,0.59,-0.42,0.34,0.800062498,,
35.2,0.77,-0.85,0.38,1.208221834,,
35.25,0.83,-0.98,0.48,1.371021517,,
35.3,1.04,-1.53,0.62,1.951127879,,
35.35,0.46,-1.32,0.5,1.484587485,,
35.4,0.5,-1.46,0.45,1.607513608,,
35.45,0.5,-1.45,0.36,1.575468184,,
35.5,0.36,-0.99,0.18,1.068690788,,
35.55,0.36,-0.75,0.16,0.847171765,,
35.6,0.52,-0.62,0.26,0.849941174,,
35.65,0.37,-0.42,0.2,0.594390444,,
35.7,0.22,-0.34,0.1,0.417133072,,
35.75,0.33,-0.65,0.04,0.73006849,,
35.8,0.42,-1.53,-0.14,1.592764892,,
35.85,0.93,-2,-0.08,2.207102173,,
35.9,1.06,-1.74,0.55,2.110379113,,
35.95,0.56,-1.05,0.03,1.190378091,,
36,0.29,-1.2,-0.22,1.25399362,,
36.05,0.54,-1.12,-0.35,1.291704301,,
36.1,0.92,-0.69,-0.18,1.164001718,,
36.15,0.82,-0.43,-0.11,0.932416216,,
36.2,0.75,-0.43,-0.02,0.8647543,,
36.25,0.94,-0.38,0.26,1.046709129,,
36.3,0.88,-0.61,0.45,1.161464593,,
36.35,0.89,-0.96,0.41,1.371787156,,
36.4,0.69,-1.41,0.66,1.702879914,,
36.45,0.88,-1.15,0.57,1.556213353,,
36.5,0.95,-1.95,0.52,2.230560468,,
36.55,0.35,-1.67,0.13,1.71122763,,
36.6,0.34,-1.24,0.12,1.291355877,,
36.65,0.46,-0.98,0.17,1.09585583,,
36.7,0.28,-0.74,0.08,0.795235814,,
36.75,0.19,-0.52,0.1,0.562583327,,
36.8,0.24,-0.44,0.17,0.529244745,,
36.85,0.27,-0.69,0.29,0.795675813,,
36.9,0.2,-1.1,0.18,1.132431013,,
36.95,0.31,-2,-0.1,2.026351401,,
37,1.29,-2,0.65,2.467103565,,
37.05,0.71,-1.35,0.07,1.526925015,,
37.1,0.44,-1.15,-0.17,1.242980289,,
37.15,0.7,-0.92,-0.22,1.176775255,,
37.2,0.83,-0.57,-0.22,1.030630875,,
37.25,0.69,-0.36,-0.06,0.78057671,,
37.3,0.66,-0.29,0.13,0.732529863,,
37.35,0.93,-0.62,0.38,1.180550719,,
37.4,1.13,-1,0.46,1.577498019,,
37.45,1.25,-1.33,0.45,1.879867017,,
37.5,0.77,-1.07,0.5,1.409893613,,
37.55,0.89,-1.17,0.46,1.540324641,,
37.6,0.79,-1.47,0.36,1.707219962,,
37.65,0.45,-1.45,0.12,1.522957649,,
37.7,0.11,-1.05,0.07,1.05806427,,
37.75,0.32,-0.78,0.08,0.846876614,,
37.8,0.09,-0.75,0.02,0.755645419,,
37.85,0.38,-0.66,0.17,0.780320447,,
37.9,0.29,-0.87,0.09,0.921466223,,
37.95,0.39,-1.29,0.15,1.355986726,,
38,0.56,-1.73,0.28,1.839809773,,
38.05,0.8,-1.35,0.68,1.710233902,,
38.1,0.7,-0.91,0.41,1.219098027,,
38.15,0.31,-0.91,0.15,0.972985098,,
38.2,0.39,-0.85,0.1,0.940531764,,
38.25,0.61,-0.71,0.05,0.937389994,,
38.3,0.77,-0.54,0.11,0.946889645,,
38.35,0.72,-0.47,0.2,0.882779701,,
38.4,0.83,-0.54,0.42,1.07559286,,
38.45,0.86,-0.91,0.54,1.363561513,,
38.5,0.6,-0.94,0.31,1.157454103,,
38.55,0.78,-1.3,0.51,1.599531181,,
38.6,0.72,-1.16,0.49,1.450551619,,
38.65,0.8,-1.19,0.43,1.496996994,,
38.7,0.64,-1.21,0.21,1.384846562,,
38.75,0.35,-1.08,0.12,1.141621654,,
38.8,0.29,-0.95,0.12,1.000499875,,
38.85,0.32,-0.81,0.09,0.875556966,,
38.9,0.34,-0.7,0.07,0.781344994,,
38.95,0.41,-0.74,0.05,0.847466814,,
39,0.49,-0.99,0.1,1.109143814,,
39.05,0.56,-1.3,0.28,1.442913719,,
39.1,0.65,-1.11,0.61,1.423622141,,
39.15,0.36,-0.93,0.56,1.143721994,,
39.2,0.46,-1.03,0.36,1.184103036,,
39.25,0.37,-0.94,0.31,1.056692954,,
39.3,0.64,-0.79,0.35,1.075267409,,
39.35,0.79,-0.59,0.49,1.101044958,,
39.4,0.7,-0.5,0.37,0.936429389,,
39.45,0.63,-0.61,0.39,0.959739548,,
39.5,0.75,-0.97,0.44,1.302689526,,
39.55,0.71,-0.91,0.33,1.200458246,,
39.6,1.03,-1.13,0.47,1.599593698,,
39.65,0.73,-1.28,0.29,1.501798921,,
39.7,0.53,-1.25,0.18,1.369598481,,
39.75,0.52,-1.24,0.14,1.351887569,,
39.8,0.51,-1.07,0.13,1.192434485,,
39.85,0.41,-0.91,0.07,1.000549849,,
39.9,0.35,-0.79,0.08,0.867755726,,
39.95,0.29,-0.64,0.1,0.709718254,,
40,0.36,-0.69,0.14,0.790759129,,
40.05,0.3,-0.89,0.19,0.95822753,,
40.1,0.4,-1.3,0.38,1.412232276,,
40.15,0.51,-1.38,0.76,1.655928742,,
40.2,0.46,-0.99,0.63,1.260396763,,
40.25,0.35,-1.04,0.33,1.145862121,,
40.3,0.41,-0.83,0.2,0.947100839,,
40.35,0.64,-0.85,0.22,1.086508168,,
40.4,0.71,-0.68,0.17,0.997697349,,
40.45,0.7,-0.58,0.2,0.930806102,,
40.5,0.77,-0.67,0.26,1.053280589,,
40.55,0.83,-0.9,0.35,1.273342059,,
40.6,0.76,-0.85,0.36,1.195700631,,
40.65,0.92,-1.32,0.53,1.69401889,,
40.7,0.74,-1.27,0.44,1.534307661,,
40.75,0.67,-1.15,0.24,1.352405265,,
40.8,0.48,-1.17,0.17,1.276009404,,
40.85,0.48,-1,0.16,1.120714058,,
40.9,0.36,-0.91,0.08,0.98188594,,
40.95,0.29,-0.86,0.03,0.908074887,,
41,0.26,-0.67,-0.01,0.718748913,,
41.05,0.36,-0.72,0.02,0.805232886,,
41.1,0.48,-0.98,0.15,1.101498979,,
41.15,0.56,-1.19,0.29,1.346773923,,
41.2,0.64,-1.22,0.63,1.514892735,,
41.25,0.43,-0.95,0.61,1.208097678,,
41.3,0.21,-1,0.2,1.041201229,,
41.35,0.36,-0.87,0.16,0.955039266,,
41.4,0.73,-0.82,0.23,1.121695146,,
41.45,0.81,-0.6,0.32,1.057591604,,
41.5,0.73,-0.45,0.32,0.915314154,,
41.55,0.68,-0.65,0.37,1.010841234,,
41.6,0.52,-0.94,0.27,1.107655181,,
41.65,0.83,-1.11,0.5,1.473431369,,
41.7,0.89,-1.21,0.55,1.599593698,,
41.75,0.72,-1.19,0.39,1.444506836,,
41.8,0.59,-1.33,0.3,1.485597523,,
41.85,0.46,-1.27,0.22,1.368539367,,
41.9,0.43,-0.98,0.19,1.08692226,,
41.95,0.37,-0.88,0.16,0.967935948,,
42,0.25,-0.72,0.08,0.766355009,,
42.05,0.21,-0.53,0.08,0.575673519,,
42.1,0.29,-0.54,0.12,0.624579859,,
42.15,0.36,-0.79,0.17,0.884646822,,
42.2,0.49,-1.62,0.19,1.703114794,,
42.25,0.98,-1.99,0.83,2.368417193,,
42.3,0.48,-1.05,0.39,1.218605761,,
42.35,0.18,-1.09,-0.01,1.104807676,,
42.4,0.45,-0.97,-0.13,1.077172224,,
42.45,0.89,-0.71,-0.16,1.149695612,,
42.5,0.82,-0.48,-0.18,0.967057392,,
42.55,0.73,-0.35,-0.08,0.81351091,,
42.6,0.7,-0.44,0.07,0.829759001,,
42.65,0.98,-0.77,0.29,1.279609315,,
42.7,0.74,-1.01,0.16,1.262259878,,
42.75,1.08,-1.41,0.71,1.912746716,,
42.8,0.74,-1.09,0.69,1.487212157,,
42.85,0.94,-1.09,0.72,1.609378762,,
42.9,0.71,-1.28,0.3,1.49415528,,
42.95,0.45,-1.1,0.1,1.192686044,,
43,0.27,-0.91,0.05,0.95052617,,
43.05,0.19,-0.81,0.01,0.832045672,,
43.1,0.18,-0.63,-0.03,0.655896333,,
43.15,0.36,-0.61,0.02,0.70859015,,
43.2,0.53,-0.92,0.14,1.070934172,,
43.25,0.58,-1.35,0.18,1.480304023,,
43.3,0.78,-1.7,0.45,1.923772336,,
43.35,0.73,-1.1,0.82,1.554123547,,
43.4,0.19,-0.89,0.27,0.949262872,,
43.45,0.04,-1.05,-0.04,1.051522705,,
43.5,0.25,-0.87,-0.15,0.917551088,,
43.55,0.86,-0.74,-0.08,1.137365377,,
43.6,0.95,-0.53,0.06,1.089495296,,
43.65,0.82,-0.39,0.24,0.939201789,,
43.7,0.74,-0.43,0.41,0.948999473,,
43.75,0.82,-0.76,0.47,1.212806662,,
43.8,0.53,-1.09,0.24,1.235556555,,
43.85,0.66,-1.41,0.58,1.661354869,,
43.9,0.74,-0.93,0.56,1.31381125,,
43.95,0.78,-1.12,0.61,1.494958193,,
44,0.68,-1.21,0.43,1.453065725,,
44.05,0.46,-1.1,0.28,1.224744871,,
44.1,0.33,-0.97,0.18,1.040288422,,
44.15,0.32,-0.89,0.15,0.95760117,,
44.2,0.28,-0.75,0.12,0.809506022,,
44.25,0.3,-0.59,0.1,0.669402719,,
44.3,0.4,-0.69,0.14,0.809753049,,
44.35,0.42,-0.96,0.19,1.064941313,,
44.4,0.48,-1.45,0.23,1.544603509,,
44.45,0.76,-1.56,0.7,1.871149379,,
44.5,0.52,-0.91,0.72,1.271573828,,
44.55,0.12,-1.09,0.16,1.108196733,,
44.6,0.15,-0.96,-0.04,0.972471079,,
44.65,0.56,-0.87,-0.01,1.034698024,,
44.7,0.87,-0.65,0.02,1.086185988,,
44.75,0.82,-0.43,0.12,0.933648756,,
44.8,0.76,-0.31,0.24,0.855160804,,
44.85,0.83,-0.46,0.37,1.01852835,,
44.9,0.76,-0.72,0.32,1.094714575,,
44.95,0.68,-1.05,0.25,1.275695889,,
45,0.91,-1.27,0.5,1.640426774,,
45.05,0.74,-1.22,0.53,1.522136656,,
45.1,0.85,-1.3,0.56,1.651090549,,
45.15,0.67,-1.43,0.33,1.613288567,,
45.2,0.42,-1.19,0.18,1.274715655,,
45.25,0.27,-0.92,0.15,0.970463807,,
45.3,0.25,-0.78,0.14,0.830963296,,
45.35,0.16,-0.61,0.06,0.633482439,,
45.4,0.27,-0.57,0.1,0.638592202,,
45.45,0.38,-0.76,0.16,0.864638653,,
45.5,0.45,-1.06,0.25,1.17838873,,
45.55,0.63,-1.72,0.32,1.859489177,,
45.6,0.84,-2,0.52,2.230694959,,
45.65,0.57,-0.76,0.39,1.026937194,,
45.7,0.28,-0.95,0.04,0.99121138,,
45.75,0.56,-0.97,-0.08,1.122898036,,
45.8,0.69,-0.75,-0.07,1.021518478,,
45.85,0.7,-0.5,-0.05,0.861684397,,
45.9,0.62,-0.38,0.05,0.728903286,,
45.95,0.69,-0.37,0.2,0.808084154,,
46,0.89,-0.57,0.42,1.137277451,,
46.05,0.85,-0.94,0.49,1.358749425,,
46.1,0.6,-1.25,0.44,1.454682096,,
46.15,0.66,-1.31,0.65,1.604431363,,
46.2,0.56,-0.87,0.63,1.211362869,,
46.25,0.68,-1.05,0.61,1.391761474,,
46.3,0.58,-1.04,0.39,1.253036312,,
46.35,0.45,-0.9,0.27,1.041825321,,
46.4,0.39,-0.94,0.2,1.037159583,,
46.45,0.33,-0.91,0.1,0.97313925,,
46.5,0.26,-0.72,0.04,0.766550716,,
46.55,0.41,-0.77,0.09,0.876983466,,
46.6,0.49,-0.92,0.18,1.057780696,,
46.65,0.45,-1.16,0.18,1.257179383,,
46.7,0.59,-1.4,0.41,1.573594611,,
46.75,0.61,-0.8,0.71,1.231340733,,
46.8,0.23,-0.99,0.28,1.054229577,,
46.85,0.19,-0.9,0.17,0.935414347,,
46.9,0.2,-0.89,0.05,0.913564448,,
46.95,0.76,-0.73,0.08,1.056834897,,
47,0.82,-0.6,0.17,1.030194156,,
47.05,0.8,-0.54,0.32,1.016857906,,
47.1,0.74,-0.64,0.38,1.049571341,,
47.15,0.64,-0.94,0.34,1.18692881,,
47.2,0.53,-0.91,0.23,1.077914653,,
47.25,0.9,-1.17,0.52,1.565023961,,
47.3,0.98,-1.14,0.5,1.584297952,,
47.35,0.75,-1.1,0.37,1.381810407,,
47.4,0.68,-1.11,0.32,1.340484987,,
47.45,0.62,-1.14,0.21,1.314572174,,
47.5,0.46,-1.13,0.11,1.224989796,,
47.55,0.35,-1.03,0.05,1.088990358,,
47.6,0.27,-0.83,-0.02,0.873040663,,
47.65,0.37,-0.66,0,0.756637298,,
47.7,0.38,-0.77,0.01,0.858719978,,
47.75,0.43,-1.06,0.11,1.149173616,,
47.8,0.69,-1.53,0.32,1.708625178,,
47.85,0.61,-1.02,0.64,1.349851844,,
47.9,0.41,-1,0.38,1.145643924,,
47.95,-0.02,-1.17,0.16,1.181058847,,
48,0.49,-1.04,0.07,1.151781229,,
48.05,0.88,-0.69,0.13,1.125788612,,
48.1,0.95,-0.5,0.28,1.109459328,,
48.15,0.79,-0.48,0.32,0.978212656,,
48.2,0.68,-0.58,0.27,0.933648756,,
48.25,0.72,-0.79,0.26,1.100045454,,
48.3,0.78,-1.12,0.39,1.419471733,,
48.35,0.72,-1.41,0.3,1.61136588,,
48.4,0.98,-1.34,0.15,1.666883319,,
48.45,0.58,-1.57,-0.12,1.678004768,,
48.5,0.61,-1.3,-0.05,1.436871602,,
48.55,0.74,-1.14,0,1.359117361,,
48.6,0.63,-1.05,0.04,1.225153052,,
48.65,0.51,-0.93,0.21,1.081249277,,
48.7,0.5,-0.52,0.52,0.889269363,,
48.75,0.45,-0.29,0.69,0.873326972,,
48.8,0.32,-0.22,0.81,0.898276127,,
48.85,0.32,-0.23,0.91,0.991665266,,
48.9,0.28,-0.32,0.96,1.04995238,,
48.95,0.26,-0.22,0.89,0.95294281,,
49,-0.05,-0.48,0.48,0.680661443,,
49.05,0.38,-0.07,0.83,0.915532632,,
49.1,0.31,-0.2,0.77,0.853814968,,
49.15,0.49,-0.1,0.9,1.029611577,,
49.2,0.55,-0.2,0.91,1.081942697,,
49.25,0.61,-0.08,0.96,1.140219277,,
49.3,0.47,-0.13,0.88,1.006081508,,
49.35,0.45,-0.22,0.96,1.082820391,,